Folder: DSE-07/src/data/materials

Note: README.md
# H₂ERMES Mass Budget Tool

This repository is used for mass budget analysis of the H₂ERMES vehicle.

File: ss304-thermal-conductivity.csv
Temperature [Â°C],Thermal Conductivity [W/(m*K)]
23.97,14.8618
92.8839,16.0813
119.85,16.6504
200.749,17.8699
299.625,19.3333
362.547,20.2276
437.453,21.4472
566.292,23.1545
701.124,25.0244
817.978,26.4878

File: ss310-thermal-conductivity.csv
Temperature [Â°C],Thermal Conductivity [W/(m*K)]
-266.544,0.38961
-213.971,4.87013
-170.956,7.20779
-99.2647,9.54545
-22.7941,11.4935
96.6912,14.026
254.412,16.9481
421.691,19.6753
608.088,22.5974
780.147,25.1299
995.221,28.0519